Folder: 36_QSDFT

Note: adsorption_data.txt
1.0000e-04 2.1751e+43
1.0975e-04 2.1751e+43
1.2045e-04 2.1751e+43
1.3219e-04 2.1751e+43
1.4508e-04 2.1751e+43
1.5923e-04 2.1751e+43
1.7475e-04 2.1751e+43
1.9179e-04 2.1751e+43
2.1049e-04 2.1751e+43
2.3101e-04 2.1751e+43
2.5354e-04 2.1751e+43
2.7826e-04 2.1751e+43
3.0539e-04 2.1751e+43
3.3516e-04 2.1751e+43
3.6784e-04 2.1751e+43
4.0370e-04 2.1751e+43
4.4306e-04 2.1751e+43
4.8626e-04 2.1751e+43
5.3367e-04 2.1751e+43
5.8570e-04 2.1751e+43
6.4281e-04 2.1751e+43
7.0548e-04 2.1751e+43
7.7426e-04 2.1751e+43
8.4975e-04 2.1751e+43
9.3260e-04 2.1751e+43
1.0235e-03 2.1751e+43
1.1233e-03 2.1751e+43
1.2328e-03 2.1751e+43
1.3530e-03 2.1751e+43
1.4850e-03 2.1751e+43
1.6298e-03 2.1751e+43
1.7886e-03 2.1751e+43
1.9630e-03 2.1751e+43
2.1544e-03 2.1751e+43
2.3645e-03 2.1751e+43
2.5950e-03 2.1751e+43
2.8480e-03 2.1751e+43
3.1257e-03 2.1751e+43
3.4305e-03 2.1751e+43
3.7649e-03 2.1751e+43
4.1320e-03 2.1751e+43
4.5349e-03 2.1751e+43
4.9770e-03 2.1751e+43
5.4623e-03 2.1751e+43
5.9948e-03 2.1751e+43
6.5793e-03 2.1751e+43
7.2208e-03 2.1751e+43
7.9248e-03 2.1751e+43
8.6975e-03 2.1751e+43
9.5455e-03 2.1751e+43
1.0476e-02 2.1751e+43
1.1498e-02 2.1751e+43
1.2619e-02 2.1751e+43
1.3849e-02 2.1751e+43
1.5199e-02 2.1751e+43
1.6681e-02 2.1751e+43
1.8307e-02 2.1751e+43
2.0092e-02 2.1751e+43
2.2051e-02 2.1751e+43
2.4201e-02 2.1751e+43
2.6561e-02 2.1751e+43
2.9151e-02 2.1751e+43
3.1993e-02 2.1751e+43
3.5112e-02 2.1751e+43
3.8535e-02 2.1751e+43
4.2292e-02 2.1751e+43
4.6416e-02 2.1751e+43
5.0941e-02 2.1751e+43
5.5908e-02 2.1751e+43
6.1359e-02 2.1751e+43
6.7342e-02 2.1751e+43
7.3907e-02 2.1751e+43
8.1113e-02 2.1751e+43
8.9022e-02 2.1751e+43
9.7701e-02 2.1751e+43
1.0723e-01 2.1751e+43
1.1768e-01 2.1751e+43
1.2915e-01 2.1751e+43
1.4175e-01 2.1751e+43
1.5557e-01 2.1751e+43
1.7074e-01 2.1751e+43
1.8738e-01 2.1751e+43
2.0565e-01 2.1751e+43
2.2570e-01 2.1751e+43
2.4771e-01 2.1751e+43
2.7186e-01 2.1751e+43
2.9836e-01 2.1751e+43
3.2745e-01 2.1751e+43
3.5938e-01 2.1751e+43
3.9442e-01 2.1751e+43
4.3288e-01 2.1751e+43
4.7508e-01 2.1751e+43
5.2140e-01 2.1751e+43
5.7224e-01 2.1751e+43
6.2803e-01 2.1751e+43
6.8926e-01 2.1751e+43
7.5646e-01 2.1751e+43
8.3022e-01 2.1751e+43
9.1116e-01 2.1751e+43
1.0000e+00 2.1751e+43

Note: Readme.md
## Prerequisites ()
>=Python 3.8.10
https://learn.microsoft.com/en-US/cpp/windows/latest-supported-vc-redist?view=msvc-170#visual-studio-2015-2017-2019-and-2022   - for exe

### Usage
main.py - —Ç–µ–∫—É—â–∞—è –≤–µ—Ä—Å–∏—è –ø—Ä–æ–≥—Ä–∞–º–º—ã (GUI-QT5) –≤—ã–±–æ—Ä–∞ –ª—é–±—ã—Ö –¥–∞–Ω–Ω—ã–π –∏–∑ —Ñ–∞–π–ª–æ–≤ (csv, gz, txt)
grath_matplot.py - –º–æ–¥—É–ª—å –ø–æ—Å—Ç—Ä–æ–µ–Ω–∏—è –≥—Ä–∞—Ñ–∏–∫–æ–≤ –Ω–∞ matplotlib



1.  RBMK_naladka.py(grath_from_tg_static_8.py - –≤ –ø—Ä–µ–¥—ã–¥—É—â–∏—Ö –≤–µ—Ä—Å–∏—è—Ö) - —Ç–µ–∫—É—â–∞—è –≤–µ—Ä—Å–∏—è –ø—Ä–æ–≥—Ä–∞–º–º—ã –¥–ª—è —Ä–∞–±–æ—Ç—ã –Ω–∞ –†–ë–ú–ö -> —Å–∫–∞—á–∫–∏, —Å–º–µ—â–µ–Ω–∏—è –∏ —Ç.–¥.(GUI-tkinter) 
    
    grath_from_tg_static_9.py - –∞–Ω–∞–ª–æ–≥ main.py —Ç–æ–ª—å–∫–æ –ø–æ–¥(GUI-tkinter), –¥–ª—è Xp - –ø–æ—Å–ª–µ–¥–Ω—è—è –≤–µ—Ä—Å–∏—è –ø–∏—Ç–æ–Ω–∞ 3.4.2, PyQT5 —Å—Ç–∞–≤–∏—Ç—å—Å—è –Ω–∞ 3.5 –∏ –≤—ã—à–µ
    grath_from_tg_static_9(Qt4).py - –∞–Ω–∞–ª–æ–≥ read_csv_3_any —Ç–æ–ª—å–∫–æ –ø–æ–¥(Qt4) —á–µ—Ä–µ–∑ anaconda, –¥–ª—è Xp - –ø–æ—Å–ª–µ–¥–Ω—è—è –≤–µ—Ä—Å–∏—è –ø–∏—Ç–æ–Ω–∞ 3.4.2, PyQT5 —Å—Ç–∞–≤–∏—Ç—å—Å—è –Ω–∞ 3.5 –∏ –≤—ã—à–µ


### help
2.  –°–æ–∑–¥–∞–Ω–∏–µ exe (–≤—Ç–æ—Ä–æ–π –≤–∞—Ä–∏–∞–Ω—Ç)
    1. https://stackoverflow.com/questions/41570359/how-can-i-convert-a-py-to-exe-for-python
    1. setup.py - –¥–ª—è —Å–æ–∑–¥–∞–Ω–∏—è exe —á–µ—Ä–µ–∑ cx_Freeze
    2. –≤ –∫–æ–º–∞–Ω–¥–Ω–æ–π —Å—Ç—Ä–æ–∫–µ         python setup.py build


3. –∫–æ–Ω–≤–µ—Ä—Ç–∏—Ä–æ–≤–∞–Ω–∏–µ ui –≤ py (—á–µ—Ä–µ–∑ —Ç–µ—Ä–º–∏–Ω–∞–ª) ------ python -m PyQt5.uic.pyuic -x qt_des.ui -o qt_des.py


4. PyCharm 
Help -> Run->Edit Configurations -> Emulate terminal in output console* (–¥–ª—è —Ä–∞—Å—à–∏—Ñ—Ä–æ–≤–∫–∏ –æ—à–∏–±–æ–∫  pyqt5)



TODO
1. –£–∑–Ω–∞—Ç—å —Å–∫–æ–ª—å–∫–æ –ø–∞–º—è—Ç–∏ –∏—Å–ø–æ–ª—å–∑—É–µ—Ç –ø—Ä–æ–≥—Ä–∞–º–º–∞ (memory_profiler –∏ psutil)
2. –ø–µ—Ä–µ–π—Ç–∏ –Ω–∞ timeit
3. –¥–æ–±–∞–≤–∏—Ç—å –ª–æ–≥–∏—Ä–æ–≤–∞–Ω–∏–µ ()
4. Matplotlib –∑–∞–º–µ–Ω–∏—Ç—å –Ω–∞ PyQtGrath
5. –°–¥–µ–ª–∞—Ç—å –∞–Ω–∞–ª–æ–≥–∏—á–Ω—É—é –≤–µ—Ä—Å–∏—é –Ω–∞ –°++
6. –°–¥–µ–ª–∞—Ç—å —Å–µ—Ä–≤–µ—Ä–Ω—É—é —Å–ª—É–∂–±—É
7. –°–¥–µ–ª–∞—Ç—å –¥–µ—Å–∫—Ç–æ–ø–Ω—É—é –≤–µ—Ä—Å–∏—é
8. –°–¥–µ–ª–∞—Ç—å –º–æ–±–∏–ª—å–Ω—É—é –≤–µ—Ä—Å–∏—é
9. –î–æ–±–∞–≤–∏—Ç—å —Ç–µ—Å—Ç—ã
10. –ü–æ–∏—Å–∫ –≤ —Å–ø–∏—Å–∫–µ —Å–∏–≥–Ω–∞–ª–æ–≤ (Qtablewidget) https://stackoverflow.com/questions/51613638/highlight-search-results-in-qtablewidgetselect-and-highlight-that-text-or-chara
11. –ü–æ—Ä—Ç–∏—Ä–æ–≤–∞—Ç—å –Ω–∞ Linux(Astra –∏ Ubuntu)
12. –¥–æ–±–∞–≤–∏—Ç—å The QProgressBar
13. üì¶src
 ‚î£ üìÇconfig
 ‚îÉ ‚î£ üìú__init__.py
 ‚îÉ ‚îó üìúconfig.py
 ‚î£ üìÇui
 ‚îÉ ‚î£ üìú__init__.py
 ‚îÉ ‚î£ üìúgrath_matplot.py
 ‚îÉ ‚î£ üìúMainWindowUI.py
 ‚î£ üìÇutils
 ‚îÉ ‚î£ üìú__init__.py
 ‚îÉ ‚îó üìúhelpers.py
 ‚î£ üìÇlogic
 ‚îÉ ‚î£ üìú__init__.py
 ‚îÉ ‚î£ üìúmain_logic.py
 ‚îÉ ‚î£ üìúdata_processing.py
 ‚îÉ ‚îó üìúnetwork_operations.py
 ‚î£ üìÇlogs
 ‚îÉ ‚îó üìúapp.log
 ‚î£ üìÇtests
 ‚îÉ ‚î£ üìú__init__.py
 ‚îÉ ‚î£ üìútest_main.py
 ‚îÉ ‚îó üìútest_logic.py
 ‚î£ üìÇscripts
 ‚îÉ ‚î£ üìúbuild.py
 ‚îÉ ‚î£ üìúdeploy.py
 ‚î£ üìÇassets
 ‚îÉ ‚î£ üìÇimages
 ‚

File: data_in.csv
Table 1 Equilibrium filling pressure for nitrogen adsorption at 77.4K
Pore size(Å)	Filling pressre(P/P0)	Pore size(Å)	Filling pressre(P/P0)	Pore size(Å)	Filling pressre(P/P0)
4.00	1.970E-09	16.82	9.877E-02	78.68	8.013E-01
4.15	3.769E-09	17.56	1.160E-01	82.27	8.112E-01
4.32	7.936E-09	18.34	1.351E-01	86.02	8.205E-01
4.48	1.573E-08	19.15	1.553E-01	89.95	8.294E-01
4.66	3.311E-08	20.00	1.766E-01	94.05	8.377E-01
4.84	6.774E-08	20.89	1.993E-01	98.35	8.456E-01
5.04	1.446E-07	21.83	2.236E-01	102.84	8.531E-01
5.24	2.901E-07	22.8	2.483E-01	107.55	8.602E-01
5.45	5.661E-07	23.82	2.737E-01	112.46	8.668E-01
5.67	1.062E-06	24.88	2.998E-01	117.61	8.732E-01
5.90	1.939E-06	26.00	3.263E-01	122.99	8.792E-01
6.14	3.354E-06	27.16	3.526E-01	128.61	8.848E-01
6.40	5.888E-06	28.38	3.791E-01	134.5	8.902E-01
6.66	9.836E-06	29.66	4.053E-01	140.66	8.953E-01
6.94	1.686E-05	30.99	4.309E-01	147.10	9.001E-01
7.23	2.990E-05	32.39	4.562E-01	153.83	9.046E-01
7.53	5.365E-05	33.85	4.807E-01	160.88	9.090E-01
7.85	1.021E-04	35.38	5.046E-01	168.25	9.130E-01
8.18	2.000E-04	36.98	5.277E-01	175.96	9.169E-01
8.52	3.866E-04	38.65	5.500E-01	184.02	9.205E-01
8.89	7.353E-04	40.39	5.714E-01	192.46	9.240E-01
9.26	1.265E-03	42.22	5.921E-01	201.28	9.273E-01
9.66	2.093E-03	44.13	6.119E-01	210.51	9.304E-01
10.07	3.302E-03	46.13	6.310E-01	220.16	9.334E-01
10.51	5.013E-03	48.23	6.493E-01	230.26	9.362E-01
10.96	7.665E-03	50.42	6.668E-01	240.82	9.388E-01
11.44	1.107E-02	52.70	6.834E-01	251.87	9.414E-01
11.93	1.610E-02	55.10	6.994E-01	263.43	9.438E-01
12.45	2.106E-02	57.60	7.146E-01	275.51	9.460E-01
12.99	2.734E-02	60.22	7.290E-01	288.16	9.482E-01
13.56	3.526E-02	62.96	7.428E-01	301.38	9.502E-01
14.16	4.483E-02	65.83	7.558E-01	315.22	9.522E-01
14.78	5.608E-02	68.83	7.681E-01	329.69	9.540E-01
15.43	6.899E-02	71.96	7.798E-01	344.82	9.558E-01
16.11	8.321E-02	75.24	7.908E-01	360.65	9.575E-01

Table 2 Equilibrium filling pressure for argon adsorption at 87.3K
Pore size(Å)	Filling pressre(P/P0)	Pore size(Å)	Filling pressre(P/P0)	Pore size(Å)	Filling pressre(P/P0)
4.00	1.366E-07	16.82	1.429E-01	78.68	8.087E-01
4.15	2.368E-07	17.56	1.628E-01	82.27	8.178E-01
4.32	4.292E-07	18.34	1.837E-01	86.02	8.265E-01
4.48	7.616E-07	19.15	2.052E-01	89.95	8.348E-01
4.66	1.375E-06	20.00	2.279E-01	94.05	8.426E-01
4.84	2.477E-06	20.89	2.514E-01	98.35	8.499E-01
5.04	4.430E-06	21.83	2.754E-01	102.84	8.569E-01
5.24	7.770E-06	22.80	2.997E-01	107.55	8.636E-01
5.45	1.295E-05	23.82	3.245E-01	112.46	8.699E-01
5.67	2.124E-05	24.88	3.493E-01	117.61	8.758E-01
5.90	3.393E-05	26.00	3.744E-01	122.99	8.815E-01
6.14	5.310E-05	27.16	3.991E-01	128.61	8.869E-01
6.40	8.328E-05	28.38	4.237E-01	134.50	8.920E-01
6.66	1.278E-04	29.66	4.480E-01	140.66	8.968E-01
6.94	2.010E-04	30.99	4.716E-01	147.10	9.014E-01
7.23	3.180E-04	32.39	4.948E-01	153.83	9.058E-01
7.53	5.079E-04	33.85	5.172E-01	160.88	9.099E-01
7.85	8.274E-04	35.38	5.390E-01	168.25	9.138E-01
8.18	1.339E-03	36.98	5.601E-01	175.96	9.176E-01
8.52	2.123E-03	38.65	5.804E-01	184.02	9.211E-01
8.89	3.339E-03	40.39	5.998E-01	192.46	9.245E-01
9.26	4.737E-03	42.22	6.185E-01	201.28	9.277E-01
9.66	7.454E-03	44.13	6.365E-01	210.51	9.307E-01
10.07	1.011E-02	46.13	6.537E-01	220.16	9.336E-01
10.51	1.417E-02	48.23	6.702E-01	230.26	9.363E-01
10.96	1.891E-02	50.42	6.860E-01	240.82	9.389E-01
11.44	2.534E-02	52.70	7.010E-01	251.87	9.413E-01
11.93	3.334E-02	55.10	7.154E-01	263.43	9.437E-01
12.45	4.072E-02	57.60	7.292E-01	275.51	9.459E-01
12.99	5.077E-02	60.22	7.423E-01	288.16	9.480E-01
13.56	6.306E-02	62.96	7.548E-01	301.38	9.500E-01
14.16	7.641E-02	65.83	7.667E-01	315.22	9.520E-01
14.78	9.111E-02	68.83	7.780E-01	329.69	9.538E-01
15.43	1.070E-01	71.96	7.888E-01	344.82	9.555E-01
16.11	1.242E-01	75.24	7.990E-01	360.65	9.572E-01